ENVI ASCII Plot File [Wed Jul  1 16:20:42 2009]
Column 1: X Axis
Column 2: spectrum #1~~2
   350.000000   18.885292
   351.000000   18.893988
   352.000000   18.903284
   353.000000   18.893995
   354.000000   18.904172
   355.000000   18.903793
   356.000000   18.884624
   357.000000   18.888799
   358.000000   18.943169
   359.000000   19.031871
   360.000000   19.147365
   361.000000   19.210444
   362.000000   19.325249
   363.000000   19.472012
   364.000000   19.594355
   365.000000   19.673698
   366.000000   19.776287
   367.000000   19.918287
   368.000000   20.081631
   369.000000   20.273902
   370.000000   20.499654
   371.000000   20.768096
   372.000000   21.112043
   373.000000   21.462296
   374.000000   21.805882
   375.000000   22.118382
   376.000000   22.556304
   377.000000   23.024584
   378.000000   23.496588
   379.000000   23.934496
   380.000000   24.441353
   381.000000   25.023856
   382.000000   25.694635
   383.000000   26.465522
   384.000000   27.335549
   385.000000   28.233981
   386.000000   29.078661
   387.000000   30.080755
   388.000000   31.145833
   389.000000   32.252383
   390.000000   33.426617
   391.000000   34.861734
   392.000000   36.468102
   393.000000   38.193964
   394.000000   40.038276
   395.000000   41.941119
   396.000000   43.831218
   397.000000   45.676162
   398.000000   47.443160
   399.000000   49.160521
   400.000000   50.847064
   401.000000   52.528546
   402.000000   54.260372
   403.000000   55.980272
   404.000000   57.708473
   405.000000   59.471687
   406.000000   61.136633
   407.000000   62.688921
   408.000000   64.112010
   409.000000   65.370208
   410.000000   66.467697
   411.000000   67.426943
   412.000000   68.264947
   413.000000   68.969506
   414.000000   69.587934
   415.000000   70.123320
   416.000000   70.552441
   417.000000   70.925757
   418.000000   71.249805
   419.000000   71.525697
   420.000000   71.760150
   421.000000   71.979785
   422.000000   72.179617
   423.000000   72.352380
   424.000000   72.528066
   425.000000   72.688485
   426.000000   72.840545
   427.000000   73.013351
   428.000000   73.172333
   429.000000   73.324523
   430.000000   73.471621
   431.000000   73.614375
   432.000000   73.763213
   433.000000   73.913228
   434.000000   74.061439
   435.000000   74.230179
   436.000000   74.393488
   437.000000   74.549055
   438.000000   74.693836
   439.000000   74.839297
   440.000000   74.979419
   441.000000   75.111043
   442.000000   75.224623
   443.000000   75.339284
   444.000000   75.444562
   445.000000   75.535211
   446.000000   75.621766
   447.000000   75.704543
   448.000000   75.777002
   449.000000   75.826527
   450.000000   75.883113
   451.000000   75.924837
   452.000000   75.949566
   453.000000   75.957778
   454.000000   75.962445
   455.000000   75.966606
   456.000000   75.971340
   457.000000   75.975611
   458.000000   75.974012
   459.000000   75.966510
   460.000000   75.951957
   461.000000   75.961950
   462.000000   75.970309
   463.000000   75.975614
   464.000000   75.978452
   465.000000   75.983615
   466.000000   75.979338
   467.000000   75.963861
   468.000000   75.954203
   469.000000   75.952381
   470.000000   75.950140
   471.000000   75.941476
   472.000000   75.946324
   473.000000   75.951428
   474.000000   75.960031
   475.000000   75.979701
   476.000000   75.980030
   477.000000   75.986116
   478.000000   76.000679
   479.000000   76.014574
   480.000000   76.034358
   481.000000   76.053750
   482.000000   76.069145
   483.000000   76.076885
   484.000000   76.088984
   485.000000   76.112877
   486.000000   76.161020
   487.000000   76.201438
   488.000000   76.249838
   489.000000   76.304932
   490.000000   76.357995
   491.000000   76.420769
   492.000000   76.482741
   493.000000   76.541120
   494.000000   76.611846
   495.000000   76.675491
   496.000000   76.738469
   497.000000   76.806340
   498.000000   76.878976
   499.000000   76.958392
   500.000000   77.044970
   501.000000   77.141354
   502.000000   77.217418
   503.000000   77.294581
   504.000000   77.377440
   505.000000   77.461529
   506.000000   77.557939
   507.000000   77.660943
   508.000000   77.767550
   509.000000   77.855085
   510.000000   77.938901
   511.000000   78.019952
   512.000000   78.099830
   513.000000   78.190761
   514.000000   78.281223
   515.000000   78.370161
   516.000000   78.468716
   517.000000   78.559869
   518.000000   78.645183
   519.000000   78.726212
   520.000000   78.814537
   521.000000   78.896686
   522.000000   78.976367
   523.000000   79.055399
   524.000000   79.129828
   525.000000   79.214796
   526.000000   79.305637
   527.000000   79.385133
   528.000000   79.460736
   529.000000   79.529667
   530.000000   79.592233
   531.000000   79.666097
   532.000000   79.728551
   533.000000   79.784959
   534.000000   79.839165
   535.000000   79.902216
   536.000000   79.951504
   537.000000   79.990762
   538.000000   80.028328
   539.000000   80.068556
   540.000000   80.108127
   541.000000   80.145168
   542.000000   80.172295
   543.000000   80.198080
   544.000000   80.220074
   545.000000   80.236583
   546.000000   80.250136
   547.000000   80.263746
   548.000000   80.273627
   549.000000   80.273415
   550.000000   80.279950
   551.000000   80.289101
   552.000000   80.299408
   553.000000   80.306944
   554.000000   80.293531
   555.000000   80.276137
   556.000000   80.261169
   557.000000   80.244657
   558.000000   80.226900
   559.000000   80.211079
   560.000000   80.200665
   561.000000   80.183604
   562.000000   80.165698
   563.000000   80.144951
   564.000000   80.114093
   565.000000   80.094397
   566.000000   80.079382
   567.000000   80.064301
   568.000000   80.019601
   569.000000   79.976922
   570.000000   79.937693
   571.000000   79.902969
   572.000000   79.878959
   573.000000   79.841305
   574.000000   79.790995
   575.000000   79.729334
   576.000000   79.685025
   577.000000   79.656252
   578.000000   79.641890
   579.000000   79.636318
   580.000000   79.601860
   581.000000   79.551373
   582.000000   79.489889
   583.000000   79.430815
   584.000000   79.372528
   585.000000   79.309195
   586.000000   79.233091
   587.000000   79.185371
   588.000000   79.138224
   589.000000   79.088553
   590.000000   79.035855
   591.000000   78.984251
   592.000000   78.934041
   593.000000   78.885306
   594.000000   78.832091
   595.000000   78.787865
   596.000000   78.741763
   597.000000   78.682996
   598.000000   78.606512
   599.000000   78.535016
   600.000000   78.467200
   601.000000   78.395100
   602.000000   78.310162
   603.000000   78.224444
   604.000000   78.139091
   605.000000   78.040231
   606.000000   77.957171
   607.000000   77.882115
   608.000000   77.810822
   609.000000   77.740322
   610.000000   77.657960
   611.000000   77.572275
   612.000000   77.498240
   613.000000   77.412637
   614.000000   77.326942
   615.000000   77.246778
   616.000000   77.187908
   617.000000   77.115416
   618.000000   77.030320
   619.000000   76.932828
   620.000000   76.858882
   621.000000   76.800513
   622.000000   76.749715
   623.000000   76.697458
   624.000000   76.628346
   625.000000   76.570934
   626.000000   76.519291
   627.000000   76.444558
   628.000000   76.367243
   629.000000   76.296518
   630.000000   76.233335
   631.000000   76.150872
   632.000000   76.067664
   633.000000   75.989739
   634.000000   75.922918
   635.000000   75.882655
   636.000000   75.835217
   637.000000   75.776729
   638.000000   75.700259
   639.000000   75.636401
   640.000000   75.574768
   641.000000   75.513100
   642.000000   75.454138
   643.000000   75.384184
   644.000000   75.308251
   645.000000   75.228744
   646.000000   75.196574
   647.000000   75.150771
   648.000000   75.085937
   649.000000   74.988980
   650.000000   74.933861
   651.000000   74.892863
   652.000000   74.862947
   653.000000   74.849581
   654.000000   74.854281
   655.000000   74.851227
   656.000000   74.830431
   657.000000   74.801331
   658.000000   74.760384
   659.000000   74.725112
   660.000000   74.717288
   661.000000   74.706166
   662.000000   74.694677
   663.000000   74.678873
   664.000000   74.645278
   665.000000   74.631237
   666.000000   74.631845
   667.000000   74.642557
   668.000000   74.626216
   669.000000   74.615392
   670.000000   74.615392
   671.000000   74.631473
   672.000000   74.622955
   673.000000   74.609519
   674.000000   74.599241
   675.000000   74.607868
   676.000000   74.597082
   677.000000   74.599764
   678.000000   74.617070
   679.000000   74.622800
   680.000000   74.621447
   681.000000   74.632747
   682.000000   74.670323
   683.000000   74.709678
   684.000000   74.726653
   685.000000   74.725864
   686.000000   74.712898
   687.000000   74.713679
   688.000000   74.716741
   689.000000   74.718436
   690.000000   74.709360
   691.000000   74.700431
   692.000000   74.703963
   693.000000   74.723771
   694.000000   74.746468
   695.000000   74.760528
   696.000000   74.761452
   697.000000   74.742654
   698.000000   74.723782
   699.000000   74.705680
   700.000000   74.693384
   701.000000   74.700499
   702.000000   74.702597
   703.000000   74.687722
   704.000000   74.656144
   705.000000   74.637110
   706.000000   74.615531
   707.000000   74.594242
   708.000000   74.575217
   709.000000   74.575995
   710.000000   74.585056
   711.000000   74.584336
   712.000000   74.534742
   713.000000   74.468028
   714.000000   74.419608
   715.000000   74.398868
   716.000000   74.396703
   717.000000   74.400512
   718.000000   74.374502
   719.000000   74.298217
   720.000000   74.229199
   721.000000   74.177392
   722.000000   74.143430
   723.000000   74.129945
   724.000000   74.119563
   725.000000   74.120606
   726.000000   74.123917
   727.000000   74.097604
   728.000000   74.091111
   729.000000   74.084874
   730.000000   74.074736
   731.000000   74.084482
   732.000000   74.094355
   733.000000   74.109882
   734.000000   74.137002
   735.000000   74.128446
   736.000000   74.110486
   737.000000   74.091284
   738.000000   74.087118
   739.000000   74.094279
   740.000000   74.096165
   741.000000   74.090193
   742.000000   74.084135
   743.000000   74.078067
   744.000000   74.074918
   745.000000   74.076836
   746.000000   74.074925
   747.000000   74.095391
   748.000000   74.124511
   749.000000   74.140834
   750.000000   74.147300
   751.000000   74.140240
   752.000000   74.117732
   753.000000   74.070375
   754.000000   74.029098
   755.000000   73.994342
   756.000000   73.989813
   757.000000   74.046037
   758.000000   74.040924
   759.000000   74.009190
   760.000000   73.976698
   761.000000   73.965562
   762.000000   73.958047
   763.000000   73.956255
   764.000000   73.972649
   765.000000   73.941730
   766.000000   73.901818
   767.000000   73.865266
   768.000000   73.853361
   769.000000   73.867553
   770.000000   73.884538
   771.000000   73.885833
   772.000000   73.883229
   773.000000   73.886231
   774.000000   73.882776
   775.000000   73.844509
   776.000000   73.835300
   777.000000   73.829877
   778.000000   73.820859
   779.000000   73.792984
   780.000000   73.766034
   781.000000   73.741499
   782.000000   73.720602
   783.000000   73.728935
   784.000000   73.737909
   785.000000   73.750202
   786.000000   73.770574
   787.000000   73.781439
   788.000000   73.776508
   789.000000   73.754669
   790.000000   73.714034
   791.000000   73.685597
   792.000000   73.667881
   793.000000   73.661914
   794.000000   73.682864
   795.000000   73.683666
   796.000000   73.671150
   797.000000   73.650493
   798.000000   73.617163
   799.000000   73.585569
   800.000000   73.564499
   801.000000   73.577594
   802.000000   73.568792
   803.000000   73.541369
   804.000000   73.500311
   805.000000   73.491720
   806.000000   73.494128
   807.000000   73.504241
   808.000000   73.521209
   809.000000   73.503945
   810.000000   73.483006
   811.000000   73.463529
   812.000000   73.455734
   813.000000   73.411913
   814.000000   73.356400
   815.000000   73.300092
   816.000000   73.273644
   817.000000   73.257885
   818.000000   73.250610
   819.000000   73.251829
   820.000000   73.252925
   821.000000   73.232940
   822.000000   73.204849
   823.000000   73.183352
   824.000000   73.179272
   825.000000   73.179902
   826.000000   73.183237
   827.000000   73.186934
   828.000000   73.190019
   829.000000   73.179385
   830.000000   73.150595
   831.000000   73.107496
   832.000000   73.046580
   833.000000   72.988457
   834.000000   72.951729
   835.000000   72.948201
   836.000000   72.953943
   837.000000   72.959222
   838.000000   72.942798
   839.000000   72.899685
   840.000000   72.855181
   841.000000   72.818820
   842.000000   72.819077
   843.000000   72.814265
   844.000000   72.802582
   845.000000   72.782041
   846.000000   72.769484
   847.000000   72.744805
   848.000000   72.709867
   849.000000   72.667384
   850.000000   72.652545
   851.000000   72.640930
   852.000000   72.626731
   853.000000   72.598380
   854.000000   72.539885
   855.000000   72.482321
   856.000000   72.439990
   857.000000   72.430392
   858.000000   72.412197
   859.000000   72.396029
   860.000000   72.395636
   861.000000   72.393380
   862.000000   72.381220
   863.000000   72.360732
   864.000000   72.338471
   865.000000   72.305417
   866.000000   72.275367
   867.000000   72.250683
   868.000000   72.215504
   869.000000   72.173908
   870.000000   72.132476
   871.000000   72.096978
   872.000000   72.076378
   873.000000   72.049150
   874.000000   72.017576
   875.000000   71.987865
   876.000000   71.966312
   877.000000   71.946897
   878.000000   71.928660
   879.000000   71.912898
   880.000000   71.874447
   881.000000   71.823605
   882.000000   71.765171
   883.000000   71.714689
   884.000000   71.671764
   885.000000   71.646273
   886.000000   71.657138
   887.000000   71.642961
   888.000000   71.641639
   889.000000   71.648005
   890.000000   71.614909
   891.000000   71.601568
   892.000000   71.570386
   893.000000   71.502963
   894.000000   71.420838
   895.000000   71.360047
   896.000000   71.315901
   897.000000   71.285001
   898.000000   71.295920
   899.000000   71.310703
   900.000000   71.330375
   901.000000   71.365943
   902.000000   71.367841
   903.000000   71.352740
   904.000000   71.322257
   905.000000   71.262497
   906.000000   71.222549
   907.000000   71.183490
   908.000000   71.130783
   909.000000   71.035329
   910.000000   70.993037
   911.000000   70.986126
   912.000000   70.979068
   913.000000   70.980068
   914.000000   71.010875
   915.000000   71.056828
   916.000000   71.012780
   917.000000   70.967921
   918.000000   70.927209
   919.000000   70.892320
   920.000000   70.810602
   921.000000   70.770144
   922.000000   70.737962
   923.000000   70.663363
   924.000000   70.670732
   925.000000   70.662710
   926.000000   70.647481
   927.000000   70.732208
   928.000000   70.730157
   929.000000   70.681369
   930.000000   70.596028
   931.000000   70.450996
   932.000000   70.323576
   933.000000   70.245534
   934.000000   70.249466
   935.000000   70.194321
   936.000000   70.158860
   937.000000   70.159060
   938.000000   70.234077
   939.000000   70.270146
   940.000000   70.310071
   941.000000   70.358760
   942.000000   70.365436
   943.000000   70.341151
   944.000000   70.241832
   945.000000   70.033106
   946.000000   70.096407
   947.000000   70.091345
   948.000000   70.055623
   949.000000   70.046808
   950.000000   70.077212
   951.000000   70.087173
   952.000000   70.057665
   953.000000   69.938190
   954.000000   69.949043
   955.000000   70.000153
   956.000000   70.050648
   957.000000   69.967532
   958.000000   69.914810
   959.000000   69.895492
   960.000000   69.918519
   961.000000   69.759295
   962.000000   69.714691
   963.000000   69.758743
   964.000000   69.765936
   965.000000   69.774245
   966.000000   69.769152
   967.000000   69.741132
   968.000000   69.639300
   969.000000   69.621907
   970.000000   69.618333
   971.000000   69.572977
   972.000000   69.586191
   973.000000   69.539108
   974.000000   69.449263
   975.000000   69.360516
   976.000000   69.448874
   977.000000   69.548701
   978.000000   69.604155
   979.000000   69.474490
   980.000000   69.483149
   981.000000   69.502323
   982.000000   69.462266
   983.000000   69.423819
   984.000000   69.332777
   985.000000   69.237071
   986.000000   69.212646
   987.000000   69.121736
   988.000000   69.078991
   989.000000   69.085241
   990.000000   69.082209
   991.000000   69.103572
   992.000000   69.124269
   993.000000   69.137936
   994.000000   69.222249
   995.000000   69.194200
   996.000000   69.125867
   997.000000   69.091971
   998.000000   69.061439
   999.000000   69.036428
  1000.000000   68.978089
  1001.000000   68.140471
  1002.000000   68.100609
  1003.000000   68.073166
  1004.000000   68.087574
  1005.000000   68.098176
  1006.000000   68.084514
  1007.000000   68.071889
  1008.000000   68.023812
  1009.000000   67.980439
  1010.000000   67.950729
  1011.000000   67.920829
  1012.000000   67.898717
  1013.000000   67.860659
  1014.000000   67.826931
  1015.000000   67.805044
  1016.000000   67.783651
  1017.000000   67.734408
  1018.000000   67.702048
  1019.000000   67.686197
  1020.000000   67.667437
  1021.000000   67.625389
  1022.000000   67.576945
  1023.000000   67.544064
  1024.000000   67.518146
  1025.000000   67.498062
  1026.000000   67.484365
  1027.000000   67.456927
  1028.000000   67.388394
  1029.000000   67.330394
  1030.000000   67.299983
  1031.000000   67.262749
  1032.000000   67.224498
  1033.000000   67.191518
  1034.000000   67.158333
  1035.000000   67.136325
  1036.000000   67.135215
  1037.000000   67.121671
  1038.000000   67.088852
  1039.000000   67.061382
  1040.000000   67.047184
  1041.000000   67.040422
  1042.000000   67.027576
  1043.000000   67.008680
  1044.000000   66.994926
  1045.000000   67.018487
  1046.000000   67.017380
  1047.000000   66.995399
  1048.000000   66.962034
  1049.000000   66.927701
  1050.000000   66.918511
  1051.000000   66.919774
  1052.000000   66.907000
  1053.000000   66.883027
  1054.000000   66.859563
  1055.000000   66.842299
  1056.000000   66.812813
  1057.000000   66.758976
  1058.000000   66.710129
  1059.000000   66.669234
  1060.000000   66.630645
  1061.000000   66.590871
  1062.000000   66.583994
  1063.000000   66.545894
  1064.000000   66.516749
  1065.000000   66.494303
  1066.000000   66.483133
  1067.000000   66.446458
  1068.000000   66.428038
  1069.000000   66.408709
  1070.000000   66.389402
  1071.000000   66.372122
  1072.000000   66.352600
  1073.000000   66.326180
  1074.000000   66.290517
  1075.000000   66.247723
  1076.000000   66.203277
  1077.000000   66.154948
  1078.000000   66.124816
  1079.000000   66.099425
  1080.000000   66.077701
  1081.000000   66.027815
  1082.000000   65.985034
  1083.000000   65.943499
  1084.000000   65.917588
  1085.000000   65.867049
  1086.000000   65.825550
  1087.000000   65.775997
  1088.000000   65.739979
  1089.000000   65.703354
  1090.000000   65.684986
  1091.000000   65.661949
  1092.000000   65.607301
  1093.000000   65.555369
  1094.000000   65.486540
  1095.000000   65.430622
  1096.000000   65.393024
  1097.000000   65.374004
  1098.000000   65.321946
  1099.000000   65.273699
  1100.000000   65.209636
  1101.000000   65.161693
  1102.000000   65.052718
  1103.000000   65.008883
  1104.000000   64.886497
  1105.000000   64.822552
  1106.000000   64.656478
  1107.000000   64.556159
  1108.000000   64.440728
  1109.000000   64.325840
  1110.000000   64.221079
  1111.000000   64.044461
  1112.000000   63.945512
  1113.000000   63.806030
  1114.000000   63.738053
  1115.000000   63.653182
  1116.000000   63.544709
  1117.000000   63.668118
  1118.000000   63.621002
  1119.000000   63.843101
  1120.000000   63.783064
  1121.000000   64.144283
  1122.000000   64.048086
  1123.000000   64.243371
  1124.000000   64.369552
  1125.000000   64.526801
  1126.000000   64.548285
  1127.000000   64.673355
  1128.000000   64.706662
  1129.000000   64.636754
  1130.000000   64.730554
  1131.000000   64.744546
  1132.000000   64.717056
  1133.000000   64.677729
  1134.000000   64.625970
  1135.000000   64.539316
  1136.000000   64.462319
  1137.000000   64.389403
  1138.000000   64.193882
  1139.000000   64.186090
  1140.000000   64.013744
  1141.000000   63.959909
  1142.000000   63.865768
  1143.000000   63.843226
  1144.000000   63.831251
  1145.000000   63.822360
  1146.000000   63.897250
  1147.000000   63.935397
  1148.000000   63.972362
  1149.000000   64.075751
  1150.000000   64.088336
  1151.000000   64.161875
  1152.000000   64.149907
  1153.000000   64.222303
  1154.000000   64.150313
  1155.000000   64.131205
  1156.000000   64.104994
  1157.000000   64.046022
  1158.000000   63.999784
  1159.000000   63.908254
  1160.000000   63.821325
  1161.000000   63.723649
  1162.000000   63.657276
  1163.000000   63.533022
  1164.000000   63.478885
  1165.000000   63.389896
  1166.000000   63.314359
  1167.000000   63.231310
  1168.000000   63.132340
  1169.000000   63.044301
  1170.000000   62.967714
  1171.000000   62.919809
  1172.000000   62.818368
  1173.000000   62.750914
  1174.000000   62.661608
  1175.000000   62.589368
  1176.000000   62.523478
  1177.000000   62.467536
  1178.000000   62.410048
  1179.000000   62.380395
  1180.000000   62.338313
  1181.000000   62.276459
  1182.000000   62.250589
  1183.000000   62.228273
  1184.000000   62.212087
  1185.000000   62.176415
  1186.000000   62.145708
  1187.000000   62.114839
  1188.000000   62.085687
  1189.000000   62.050333
  1190.000000   62.011458
  1191.000000   61.957237
  1192.000000   61.907092
  1193.000000   61.871887
  1194.000000   61.860032
  1195.000000   61.795492
  1196.000000   61.730502
  1197.000000   61.681054
  1198.000000   61.642189
  1199.000000   61.617114
  1200.000000   61.606091
  1201.000000   61.608717
  1202.000000   61.609326
  1203.000000   61.611439
  1204.000000   61.587922
  1205.000000   61.575149
  1206.000000   61.565065
  1207.000000   61.557281
  1208.000000   61.534035
  1209.000000   61.510351
  1210.000000   61.486439
  1211.000000   61.463576
  1212.000000   61.434612
  1213.000000   61.402310
  1214.000000   61.373483
  1215.000000   61.349401
  1216.000000   61.318897
  1217.000000   61.287234
  1218.000000   61.253590
  1219.000000   61.224382
  1220.000000   61.183131
  1221.000000   61.136812
  1222.000000   61.097897
  1223.000000   61.067282
  1224.000000   61.038259
  1225.000000   61.012220
  1226.000000   60.987492
  1227.000000   60.965150
  1228.000000   60.939643
  1229.000000   60.899466
  1230.000000   60.860622
  1231.000000   60.842201
  1232.000000   60.821046
  1233.000000   60.789695
  1234.000000   60.758339
  1235.000000   60.740658
  1236.000000   60.724468
  1237.000000   60.684294
  1238.000000   60.642055
  1239.000000   60.603555
  1240.000000   60.566859
  1241.000000   60.527155
  1242.000000   60.486997
  1243.000000   60.456610
  1244.000000   60.432534
  1245.000000   60.391500
  1246.000000   60.336396
  1247.000000   60.282841
  1248.000000   60.232756
  1249.000000   60.185146
  1250.000000   60.143708
  1251.000000   60.099591
  1252.000000   60.050272
  1253.000000   59.997237
  1254.000000   59.935419
  1255.000000   59.872481
  1256.000000   59.809544
  1257.000000   59.745747
  1258.000000   59.705603
  1259.000000   59.664622
  1260.000000   59.638785
  1261.000000   59.613470
  1262.000000   59.580185
  1263.000000   59.545002
  1264.000000   59.542021
  1265.000000   59.549472
  1266.000000   59.542570
  1267.000000   59.530296
  1268.000000   59.519343
  1269.000000   59.511987
  1270.000000   59.495577
  1271.000000   59.475162
  1272.000000   59.455003
  1273.000000   59.434083
  1274.000000   59.393333
  1275.000000   59.315812
  1276.000000   59.252899
  1277.000000   59.223829
  1278.000000   59.196811
  1279.000000   59.163737
  1280.000000   59.130808
  1281.000000   59.095195
  1282.000000   59.057222
  1283.000000   59.011250
  1284.000000   58.965007
  1285.000000   58.913557
  1286.000000   58.861629
  1287.000000   58.813862
  1288.000000   58.764981
  1289.000000   58.714812
  1290.000000   58.664199
  1291.000000   58.612885
  1292.000000   58.559387
  1293.000000   58.514860
  1294.000000   58.471363
  1295.000000   58.429808
  1296.000000   58.385794
  1297.000000   58.335940
  1298.000000   58.283074
  1299.000000   58.231011
  1300.000000   58.179383
  1301.000000   58.131123
  1302.000000   58.090892
  1303.000000   58.048114
  1304.000000   57.999916
  1305.000000   57.953322
  1306.000000   57.923373
  1307.000000   57.888912
  1308.000000   57.834273
  1309.000000   57.779751
  1310.000000   57.752721
  1311.000000   57.725881
  1312.000000   57.690518
  1313.000000   57.653998
  1314.000000   57.594254
  1315.000000   57.539461
  1316.000000   57.495436
  1317.000000   57.455670
  1318.000000   57.401852
  1319.000000   57.343108
  1320.000000   57.281217
  1321.000000   57.203519
  1322.000000   57.146741
  1323.000000   57.083571
  1324.000000   57.029389
  1325.000000   56.957623
  1326.000000   56.905723
  1327.000000   56.859335
  1328.000000   56.834905
  1329.000000   56.838547
  1330.000000   56.812480
  1331.000000   56.781112
  1332.000000   56.736267
  1333.000000   56.723819
  1334.000000   56.687784
  1335.000000   56.602631
  1336.000000   56.525123
  1337.000000   56.357647
  1338.000000   56.216288
  1339.000000   55.970231
  1340.000000   55.774195
  1341.000000   55.483385
  1342.000000   55.198080
  1343.000000   54.943372
  1344.000000   54.629972
  1345.000000   54.339668
  1346.000000   53.921227
  1347.000000   53.557079
  1348.000000   53.125368
  1349.000000   52.779774
  1350.000000   52.431874
  1351.000000   52.075842
  1352.000000   51.946958
  1353.000000   51.632523
  1354.000000   51.664266
  1355.000000   51.383403
  1356.000000   51.859683
  1357.000000   52.627062
  1358.000000   55.582957
  1359.000000   58.393806
  1360.000000   61.814782
  1361.000000   64.835163
  1362.000000   67.259537
  1363.000000   70.824616
  1364.000000   77.056471
  1365.000000   82.189730
  1366.000000   83.785028
  1367.000000   84.160186
  1368.000000   82.736240
  1369.000000   80.800578
  1370.000000   78.351408
  1371.000000   76.341547
  1372.000000   74.919409
  1373.000000   73.713449
  1374.000000   72.673800
  1375.000000   72.023240
  1376.000000   71.937147
  1377.000000   71.989514
  1378.000000   72.350229
  1379.000000   72.608409
  1380.000000   73.380761
  1381.000000   74.417562
  1382.000000   71.490320
  1383.000000   68.503603
  1384.000000   67.411523
  1385.000000   67.089129
  1386.000000   67.232980
  1387.000000   67.481608
  1388.000000   66.284557
  1389.000000   64.958988
  1390.000000   64.223962
  1391.000000   63.743554
  1392.000000   63.691568
  1393.000000   63.855916
  1394.000000   63.061783
  1395.000000   61.736321
  1396.000000   60.870528
  1397.000000   60.367276
  1398.000000   59.849202
  1399.000000   59.266493
  1400.000000   59.009082
  1401.000000   59.200001
  1402.000000   59.125795
  1403.000000   58.898829
  1404.000000   58.764548
  1405.000000   58.925399
  1406.000000   58.767611
  1407.000000   58.244976
  1408.000000   57.724503
  1409.000000   57.421236
  1410.000000   57.066187
  1411.000000   56.575300
  1412.000000   56.147451
  1413.000000   55.915630
  1414.000000   55.689713
  1415.000000   55.355395
  1416.000000   55.074153
  1417.000000   54.998870
  1418.000000   54.917716
  1419.000000   54.722284
  1420.000000   54.545693
  1421.000000   54.322093
  1422.000000   54.133585
  1423.000000   53.929740
  1424.000000   53.731851
  1425.000000   53.588727
  1426.000000   53.425017
  1427.000000   53.241853
  1428.000000   53.051325
  1429.000000   53.009539
  1430.000000   52.953429
  1431.000000   52.912619
  1432.000000   52.843761
  1433.000000   52.737394
  1434.000000   52.628848
  1435.000000   52.618287
  1436.000000   52.677628
  1437.000000   52.676488
  1438.000000   52.654992
  1439.000000   52.610507
  1440.000000   52.608384
  1441.000000   52.611442
  1442.000000   52.632255
  1443.000000   52.613438
  1444.000000   52.583576
  1445.000000   52.546067
  1446.000000   52.555832
  1447.000000   52.543038
  1448.000000   52.554651
  1449.000000   52.508621
  1450.000000   52.427994
  1451.000000   52.338912
  1452.000000   52.277530
  1453.000000   52.200110
  1454.000000   52.052449
  1455.000000   51.911934
  1456.000000   51.676990
  1457.000000   51.493549
  1458.000000   51.272311
  1459.000000   51.103399
  1460.000000   50.901881
  1461.000000   50.738882
  1462.000000   50.571743
  1463.000000   50.429509
  1464.000000   50.362956
  1465.000000   50.286272
  1466.000000   50.304231
  1467.000000   50.303548
  1468.000000   50.372647
  1469.000000   50.412960
  1470.000000   50.516478
  1471.000000   50.582174
  1472.000000   50.620126
  1473.000000   50.642842
  1474.000000   50.693685
  1475.000000   50.747420
  1476.000000   50.677182
  1477.000000   50.604122
  1478.000000   50.517948
  1479.000000   50.436874
  1480.000000   50.396840
  1481.000000   50.369428
  1482.000000   50.334585
  1483.000000   50.307203
  1484.000000   50.307149
  1485.000000   50.316228
  1486.000000   50.268211
  1487.000000   50.223398
  1488.000000   50.174195
  1489.000000   50.137838
  1490.000000   50.086019
  1491.000000   50.029734
  1492.000000   49.946598
  1493.000000   49.854228
  1494.000000   49.793000
  1495.000000   49.733876
  1496.000000   49.657495
  1497.000000   49.566562
  1498.000000   49.476829
  1499.000000   49.381938
  1500.000000   49.333724
  1501.000000   49.301407
  1502.000000   49.281750
  1503.000000   49.268630
  1504.000000   49.250763
  1505.000000   49.235743
  1506.000000   49.214236
  1507.000000   49.190155
  1508.000000   49.167089
  1509.000000   49.144072
  1510.000000   49.101797
  1511.000000   49.044304
  1512.000000   49.007320
  1513.000000   48.984687
  1514.000000   48.955053
  1515.000000   48.917125
  1516.000000   48.880384
  1517.000000   48.844178
  1518.000000   48.818936
  1519.000000   48.803737
  1520.000000   48.777221
  1521.000000   48.738964
  1522.000000   48.697798
  1523.000000   48.652670
  1524.000000   48.600814
  1525.000000   48.540774
  1526.000000   48.487840
  1527.000000   48.443624
  1528.000000   48.391662
  1529.000000   48.329351
  1530.000000   48.268779
  1531.000000   48.210622
  1532.000000   48.154431
  1533.000000   48.101291
  1534.000000   48.044621
  1535.000000   47.982744
  1536.000000   47.916073
  1537.000000   47.841314
  1538.000000   47.782215
  1539.000000   47.749965
  1540.000000   47.724002
  1541.000000   47.708613
  1542.000000   47.681314
  1543.000000   47.633037
  1544.000000   47.587693
  1545.000000   47.548579
  1546.000000   47.512070
  1547.000000   47.482418
  1548.000000   47.448884
  1549.000000   47.409054
  1550.000000   47.372935
  1551.000000   47.346673
  1552.000000   47.313167
  1553.000000   47.263972
  1554.000000   47.214881
  1555.000000   47.165558
  1556.000000   47.110002
  1557.000000   47.040689
  1558.000000   46.979058
  1559.000000   46.936483
  1560.000000   46.888105
  1561.000000   46.831357
  1562.000000   46.771445
  1563.000000   46.708682
  1564.000000   46.643356
  1565.000000   46.580907
  1566.000000   46.521215
  1567.000000   46.474580
  1568.000000   46.428511
  1569.000000   46.389985
  1570.000000   46.353134
  1571.000000   46.310283
  1572.000000   46.275332
  1573.000000   46.250106
  1574.000000   46.227212
  1575.000000   46.192538
  1576.000000   46.164466
  1577.000000   46.131722
  1578.000000   46.099374
  1579.000000   46.060997
  1580.000000   46.024662
  1581.000000   45.994769
  1582.000000   45.956439
  1583.000000   45.899990
  1584.000000   45.838560
  1585.000000   45.772099
  1586.000000   45.709830
  1587.000000   45.663723
  1588.000000   45.614135
  1589.000000   45.561984
  1590.000000   45.502795
  1591.000000   45.426193
  1592.000000   45.344766
  1593.000000   45.261399
  1594.000000   45.182159
  1595.000000   45.120177
  1596.000000   45.055404
  1597.000000   44.991768
  1598.000000   44.929530
  1599.000000   44.874804
  1600.000000   44.814863
  1601.000000   44.751399
  1602.000000   44.704126
  1603.000000   44.672603
  1604.000000   44.652422
  1605.000000   44.635847
  1606.000000   44.615849
  1607.000000   44.585666
  1608.000000   44.553002
  1609.000000   44.506119
  1610.000000   44.463383
  1611.000000   44.419158
  1612.000000   44.368955
  1613.000000   44.306540
  1614.000000   44.238935
  1615.000000   44.171372
  1616.000000   44.116661
  1617.000000   44.074981
  1618.000000   44.031856
  1619.000000   43.983381
  1620.000000   43.937174
  1621.000000   43.896211
  1622.000000   43.852052
  1623.000000   43.806869
  1624.000000   43.757926
  1625.000000   43.714437
  1626.000000   43.663853
  1627.000000   43.616990
  1628.000000   43.573361
  1629.000000   43.540279
  1630.000000   43.490080
  1631.000000   43.437607
  1632.000000   43.375116
  1633.000000   43.317036
  1634.000000   43.263575
  1635.000000   43.213147
  1636.000000   43.161525
  1637.000000   43.110816
  1638.000000   43.066210
  1639.000000   43.011228
  1640.000000   42.952821
  1641.000000   42.879641
  1642.000000   42.820280
  1643.000000   42.762942
  1644.000000   42.701651
  1645.000000   42.632566
  1646.000000   42.580235
  1647.000000   42.527783
  1648.000000   42.458244
  1649.000000   42.390036
  1650.000000   42.331507
  1651.000000   42.269806
  1652.000000   42.196270
  1653.000000   42.117320
  1654.000000   42.032620
  1655.000000   41.950086
  1656.000000   41.861668
  1657.000000   41.775088
  1658.000000   41.672482
  1659.000000   41.575751
  1660.000000   41.490110
  1661.000000   41.410835
  1662.000000   41.338812
  1663.000000   41.268687
  1664.000000   41.197038
  1665.000000   41.129770
  1666.000000   41.068676
  1667.000000   40.999368
  1668.000000   40.921127
  1669.000000   40.833506
  1670.000000   40.742221
  1671.000000   40.667748
  1672.000000   40.642410
  1673.000000   40.607783
  1674.000000   40.552713
  1675.000000   40.488176
  1676.000000   40.408671
  1677.000000   40.341193
  1678.000000   40.269531
  1679.000000   40.193035
  1680.000000   40.110009
  1681.000000   40.027138
  1682.000000   39.958852
  1683.000000   39.895358
  1684.000000   39.834110
  1685.000000   39.777020
  1686.000000   39.728349
  1687.000000   39.678046
  1688.000000   39.619927
  1689.000000   39.561993
  1690.000000   39.507116
  1691.000000   39.454800
  1692.000000   39.419836
  1693.000000   39.371095
  1694.000000   39.309267
  1695.000000   39.263580
  1696.000000   39.222963
  1697.000000   39.163283
  1698.000000   39.097449
  1699.000000   39.047578
  1700.000000   39.015032
  1701.000000   38.967964
  1702.000000   38.920174
  1703.000000   38.841304
  1704.000000   38.750452
  1705.000000   38.696027
  1706.000000   38.654201
  1707.000000   38.620513
  1708.000000   38.582398
  1709.000000   38.538733
  1710.000000   38.477793
  1711.000000   38.420095
  1712.000000   38.359127
  1713.000000   38.290536
  1714.000000   38.224087
  1715.000000   38.162762
  1716.000000   38.109253
  1717.000000   38.057383
  1718.000000   38.000473
  1719.000000   37.919368
  1720.000000   37.853659
  1721.000000   37.817530
  1722.000000   37.789806
  1723.000000   37.782051
  1724.000000   37.763563
  1725.000000   37.710116
  1726.000000   37.656694
  1727.000000   37.634702
  1728.000000   37.610402
  1729.000000   37.582118
  1730.000000   37.546847
  1731.000000   37.498617
  1732.000000   37.473618
  1733.000000   37.462338
  1734.000000   37.454416
  1735.000000   37.429052
  1736.000000   37.403047
  1737.000000   37.369896
  1738.000000   37.360571
  1739.000000   37.355435
  1740.000000   37.354869
  1741.000000   37.340023
  1742.000000   37.319635
  1743.000000   37.311952
  1744.000000   37.303524
  1745.000000   37.283900
  1746.000000   37.255337
  1747.000000   37.199950
  1748.000000   37.176731
  1749.000000   37.163804
  1750.000000   37.134417
  1751.000000   37.106255
  1752.000000   37.087295
  1753.000000   37.067086
  1754.000000   36.999147
  1755.000000   36.951483
  1756.000000   36.953895
  1757.000000   36.949036
  1758.000000   36.928685
  1759.000000   36.910984
  1760.000000   36.887400
  1761.000000   36.883668
  1762.000000   36.903937
  1763.000000   36.945466
  1764.000000   36.982141
  1765.000000   36.974015
  1766.000000   36.950806
  1767.000000   36.910457
  1768.000000   36.867981
  1769.000000   36.826855
  1770.000000   36.851375
  1771.000000   36.812033
  1772.000000   36.786124
  1773.000000   36.743758
  1774.000000   36.693737
  1775.000000   36.638300
  1776.000000   36.611024
  1777.000000   36.590608
  1778.000000   36.541400
  1779.000000   36.560415
  1780.000000   36.523883
  1781.000000   36.537592
  1782.000000   36.535999
  1783.000000   36.517701
  1784.000000   36.521118
  1785.000000   36.502167
  1786.000000   36.456890
  1787.000000   36.409016
  1788.000000   36.326838
  1789.000000   36.252283
  1790.000000   36.167524
  1791.000000   36.117971
  1792.000000   36.067851
  1793.000000   36.078682
  1794.000000   36.073292
  1795.000000   36.057656
  1796.000000   35.972898
  1797.000000   35.934637
  1798.000000   36.015873
  1799.000000   35.978357
  1800.000000   36.184747
  1801.000000   36.292766
  1802.000000   36.590494
  1803.000000   36.669021
  1804.000000   36.742201
  1805.000000   36.711141
  1806.000000   36.889561
  1807.000000   37.020522
  1808.000000   37.257921
  1809.000000   37.446717
  1810.000000   37.528368
  1811.000000   37.729635
  1812.000000   38.027094
  1813.000000   38.495673
  1814.000000   39.071479
  1815.000000   39.726828
  1816.000000   40.338605
  1817.000000   40.888323
  1818.000000   40.867100
  1819.000000   41.650895
  1820.000000   42.864403
  1821.000000   44.047138
  1822.000000   45.161750
  1823.000000   45.869147
  1824.000000   46.432579
  1825.000000   48.436409
  1826.000000   51.636061
  1827.000000   53.492510
  1828.000000   55.454550
  1829.000000   59.303167
  1830.000000   65.849862
  1831.000000   69.726818
  1832.000000   83.126002
  1833.000000  100.000000
  1834.000000  100.000000
  1835.000000  100.000000
  1836.000000   85.990490
  1837.000000   73.358434
  1838.000000   70.330044
  1839.000000   78.707604
  1840.000000   92.051466
  1841.000000  100.000000
  1842.000000  100.000000
  1843.000000  100.000000
  1844.000000  100.000000
  1845.000000  100.000000
  1846.000000  100.000000
  1847.000000  100.000000
  1848.000000  100.000000
  1849.000000  100.000000
  1850.000000  100.000000
  1851.000000   91.919989
  1852.000000   80.619513
  1853.000000   71.634199
  1854.000000   94.247168
  1855.000000  100.000000
  1856.000000  100.000000
  1857.000000  100.000000
  1858.000000  100.000000
  1859.000000  100.000000
  1860.000000  100.000000
  1861.000000  100.000000
  1862.000000  100.000000
  1863.000000   92.738090
  1864.000000   73.967820
  1865.000000   84.199038
  1866.000000  100.000000
  1867.000000  100.000000
  1868.000000  100.000000
  1869.000000  100.000000
  1870.000000  100.000000
  1871.000000   95.516789
  1872.000000   64.397981
  1873.000000   46.903179
  1874.000000   37.091592
  1875.000000   29.984430
  1876.000000   28.047529
  1877.000000   26.848304
  1878.000000   29.310421
  1879.000000   33.403138
  1880.000000   35.477014
  1881.000000   37.824785
  1882.000000   39.290587
  1883.000000   35.379524
  1884.000000   31.876113
  1885.000000   32.103934
  1886.000000   32.557678
  1887.000000   29.728770
  1888.000000   25.895923
  1889.000000   24.223864
  1890.000000   23.991790
  1891.000000   23.873081
  1892.000000   25.472077
  1893.000000   27.097157
  1894.000000   28.258564
  1895.000000   30.119425
  1896.000000   31.882684
  1897.000000   34.551778
  1898.000000   37.714753
  1899.000000   42.528297
  1900.000000   54.494573
  1901.000000   63.546453
  1902.000000   67.521225
  1903.000000   51.821998
  1904.000000   40.775872
  1905.000000   43.607347
  1906.000000   47.077619
  1907.000000   43.627855
  1908.000000   38.295469
  1909.000000   35.436898
  1910.000000   34.549083
  1911.000000   34.775582
  1912.000000   35.670541
  1913.000000   35.673474
  1914.000000   31.298008
  1915.000000   28.253999
  1916.000000   27.033903
  1917.000000   26.227473
  1918.000000   26.410375
  1919.000000   26.644595
  1920.000000   27.425141
  1921.000000   28.598333
  1922.000000   29.393161
  1923.000000   29.863494
  1924.000000   30.341889
  1925.000000   31.241613
  1926.000000   32.089355
  1927.000000   32.258696
  1928.000000   32.345685
  1929.000000   32.407978
  1930.000000   32.366089
  1931.000000   32.392908
  1932.000000   32.454829
  1933.000000   32.770003
  1934.000000   33.195343
  1935.000000   33.482577
  1936.000000   33.405261
  1937.000000   33.339672
  1938.000000   32.592796
  1939.000000   31.948566
  1940.000000   31.733587
  1941.000000   31.616287
  1942.000000   31.433208
  1943.000000   31.231335
  1944.000000   31.019469
  1945.000000   30.784365
  1946.000000   30.618678
  1947.000000   30.787726
  1948.000000   30.939029
  1949.000000   30.521838
  1950.000000   30.117914
  1951.000000   30.142880
  1952.000000   30.258708
  1953.000000   30.546689
  1954.000000   30.884684
  1955.000000   31.139037
  1956.000000   31.228334
  1957.000000   31.317740
  1958.000000   31.371701
  1959.000000   31.413123
  1960.000000   31.245976
  1961.000000   31.101179
  1962.000000   31.085423
  1963.000000   31.081986
  1964.000000   30.945953
  1965.000000   30.769852
  1966.000000   30.597301
  1967.000000   30.431659
  1968.000000   30.293410
  1969.000000   30.201038
  1970.000000   30.127993
  1971.000000   30.150555
  1972.000000   30.171806
  1973.000000   30.134963
  1974.000000   30.098055
  1975.000000   30.035691
  1976.000000   29.967486
  1977.000000   29.883775
  1978.000000   29.791231
  1979.000000   29.700126
  1980.000000   29.609435
  1981.000000   29.503071
  1982.000000   29.338216
  1983.000000   29.180706
  1984.000000   29.104153
  1985.000000   29.027305
  1986.000000   28.884902
  1987.000000   28.728741
  1988.000000   28.558257
  1989.000000   28.370055
  1990.000000   28.183755
  1991.000000   27.985527
  1992.000000   27.808406
  1993.000000   27.667539
  1994.000000   27.531195
  1995.000000   27.464949
  1996.000000   27.386511
  1997.000000   27.258878
  1998.000000   27.111552
  1999.000000   27.107165
  2000.000000   27.157412
  2001.000000   27.344046
  2002.000000   27.647633
  2003.000000   27.834584
  2004.000000   27.927900
  2005.000000   28.060731
  2006.000000   28.328122
  2007.000000   28.560075
  2008.000000   28.661589
  2009.000000   28.753079
  2010.000000   28.790442
  2011.000000   28.828565
  2012.000000   28.916088
  2013.000000   29.023149
  2014.000000   29.089893
  2015.000000   29.140824
  2016.000000   29.185720
  2017.000000   29.263321
  2018.000000   29.235330
  2019.000000   29.029914
  2020.000000   28.846204
  2021.000000   28.657649
  2022.000000   28.488626
  2023.000000   28.426342
  2024.000000   28.370496
  2025.000000   28.322380
  2026.000000   28.269839
  2027.000000   28.169056
  2028.000000   28.034840
  2029.000000   27.935419
  2030.000000   27.843777
  2031.000000   27.770666
  2032.000000   27.684150
  2033.000000   27.611286
  2034.000000   27.564431
  2035.000000   27.516594
  2036.000000   27.401987
  2037.000000   27.286171
  2038.000000   27.238978
  2039.000000   27.188189
  2040.000000   27.091745
  2041.000000   26.961379
  2042.000000   26.939731
  2043.000000   27.000921
  2044.000000   27.036026
  2045.000000   27.012478
  2046.000000   26.991140
  2047.000000   26.960552
  2048.000000   26.927135
  2049.000000   26.982298
  2050.000000   27.032952
  2051.000000   27.041864
  2052.000000   27.055342
  2053.000000   27.053762
  2054.000000   27.065688
  2055.000000   27.046200
  2056.000000   27.033151
  2057.000000   27.007961
  2058.000000   26.982997
  2059.000000   26.970219
  2060.000000   26.997733
  2061.000000   27.022126
  2062.000000   27.038361
  2063.000000   27.054203
  2064.000000   27.073470
  2065.000000   27.089665
  2066.000000   27.067843
  2067.000000   27.048626
  2068.000000   26.988841
  2069.000000   26.922333
  2070.000000   26.840486
  2071.000000   26.759460
  2072.000000   26.700708
  2073.000000   26.665940
  2074.000000   26.638963
  2075.000000   26.628608
  2076.000000   26.619660
  2077.000000   26.551166
  2078.000000   26.488348
  2079.000000   26.480681
  2080.000000   26.473718
  2081.000000   26.473388
  2082.000000   26.473925
  2083.000000   26.410909
  2084.000000   26.303115
  2085.000000   26.237470
  2086.000000   26.201808
  2087.000000   26.184638
  2088.000000   26.180174
  2089.000000   26.168571
  2090.000000   26.150599
  2091.000000   26.132502
  2092.000000   26.107178
  2093.000000   26.085054
  2094.000000   26.095157
  2095.000000   26.102091
  2096.000000   26.079602
  2097.000000   26.056365
  2098.000000   25.978593
  2099.000000   25.878179
  2100.000000   25.819167
  2101.000000   25.781981
  2102.000000   25.753353
  2103.000000   25.739438
  2104.000000   25.744981
  2105.000000   25.763658
  2106.000000   25.767316
  2107.000000   25.756365
  2108.000000   25.737204
  2109.000000   25.606916
  2110.000000   25.485670
  2111.000000   25.423028
  2112.000000   25.359908
  2113.000000   25.352308
  2114.000000   25.360038
  2115.000000   25.366920
  2116.000000   25.375050
  2117.000000   25.367762
  2118.000000   25.361446
  2119.000000   25.352861
  2120.000000   25.353851
  2121.000000   25.345370
  2122.000000   25.296820
  2123.000000   25.222545
  2124.000000   25.090790
  2125.000000   24.970856
  2126.000000   24.907364
  2127.000000   24.844724
  2128.000000   24.851733
  2129.000000   24.862908
  2130.000000   24.806480
  2131.000000   24.734971
  2132.000000   24.657558
  2133.000000   24.579827
  2134.000000   24.501017
  2135.000000   24.421312
  2136.000000   24.382329
  2137.000000   24.382816
  2138.000000   24.385324
  2139.000000   24.385404
  2140.000000   24.395870
  2141.000000   24.406273
  2142.000000   24.418961
  2143.000000   24.428146
  2144.000000   24.436731
  2145.000000   24.411039
  2146.000000   24.383251
  2147.000000   24.359401
  2148.000000   24.336221
  2149.000000   24.280693
  2150.000000   24.223483
  2151.000000   24.161740
  2152.000000   24.086946
  2153.000000   24.043503
  2154.000000   24.026138
  2155.000000   24.008561
  2156.000000   23.989584
  2157.000000   23.965325
  2158.000000   23.921815
  2159.000000   23.892550
  2160.000000   23.912676
  2161.000000   23.929662
  2162.000000   24.010744
  2163.000000   24.085874
  2164.000000   24.021083
  2165.000000   23.954501
  2166.000000   23.921902
  2167.000000   23.891153
  2168.000000   23.792700
  2169.000000   23.693637
  2170.000000   23.617484
  2171.000000   23.543405
  2172.000000   23.520972
  2173.000000   23.501745
  2174.000000   23.465420
  2175.000000   23.412903
  2176.000000   23.369411
  2177.000000   23.333612
  2178.000000   23.304685
  2179.000000   23.313752
  2180.000000   23.301833
  2181.000000   23.179880
  2182.000000   23.076493
  2183.000000   23.131715
  2184.000000   23.193237
  2185.000000   23.226715
  2186.000000   23.249484
  2187.000000   23.161004
  2188.000000   23.063671
  2189.000000   22.988907
  2190.000000   22.919674
  2191.000000   22.886006
  2192.000000   22.861303
  2193.000000   22.801091
  2194.000000   22.686176
  2195.000000   22.562194
  2196.000000   22.442425
  2197.000000   22.394602
  2198.000000   22.472032
  2199.000000   22.526319
  2200.000000   22.567268
  2201.000000   22.607032
  2202.000000   22.621199
  2203.000000   22.619900
  2204.000000   22.544538
  2205.000000   22.456385
  2206.000000   22.370112
  2207.000000   22.287840
  2208.000000   22.240699
  2209.000000   22.194944
  2210.000000   22.088732
  2211.000000   21.968818
  2212.000000   21.959480
  2213.000000   21.972162
  2214.000000   22.004102
  2215.000000   22.056206
  2216.000000   22.030045
  2217.000000   21.968590
  2218.000000   21.895411
  2219.000000   21.782529
  2220.000000   21.731815
  2221.000000   21.784733
  2222.000000   21.842130
  2223.000000   21.904122
  2224.000000   21.930595
  2225.000000   21.855244
  2226.000000   21.763700
  2227.000000   21.565384
  2228.000000   21.373562
  2229.000000   21.122664
  2230.000000   20.873175
  2231.000000   20.907448
  2232.000000   20.953615
  2233.000000   20.915418
  2234.000000   20.865228
  2235.000000   20.746678
  2236.000000   20.611421
  2237.000000   20.460505
  2238.000000   20.299193
  2239.000000   20.169212
  2240.000000   20.063594
  2241.000000   20.010182
  2242.000000   19.992255
  2243.000000   19.909220
  2244.000000   19.779357
  2245.000000   19.649946
  2246.000000   19.508917
  2247.000000   19.378737
  2248.000000   19.291596
  2249.000000   19.188650
  2250.000000   19.023880
  2251.000000   18.904795
  2252.000000   18.885427
  2253.000000   18.851632
  2254.000000   18.764364
  2255.000000   18.666669
  2256.000000   18.564494
  2257.000000   18.463343
  2258.000000   18.303684
  2259.000000   18.138526
  2260.000000   18.062044
  2261.000000   17.997091
  2262.000000   18.030593
  2263.000000   18.075961
  2264.000000   18.001831
  2265.000000   17.897067
  2266.000000   17.892874
  2267.000000   17.924853
  2268.000000   17.990295
  2269.000000   18.064340
  2270.000000   18.034798
  2271.000000   17.945788
  2272.000000   17.877592
  2273.000000   17.834024
  2274.000000   17.766383
  2275.000000   17.663494
  2276.000000   17.598256
  2277.000000   17.582194
  2278.000000   17.592639
  2279.000000   17.646717
  2280.000000   17.667710
  2281.000000   17.631423
  2282.000000   17.586086
  2283.000000   17.503170
  2284.000000   17.428362
  2285.000000   17.392781
  2286.000000   17.367819
  2287.000000   17.363240
  2288.000000   17.362445
  2289.000000   17.444468
  2290.000000   17.526952
  2291.000000   17.421726
  2292.000000   17.311059
  2293.000000   17.342763
  2294.000000   17.392653
  2295.000000   17.375923
  2296.000000   17.352149
  2297.000000   17.337930
  2298.000000   17.319943
  2299.000000   17.276087
  2300.000000   17.231225
  2301.000000   17.113197
  2302.000000   16.965380
  2303.000000   16.906448
  2304.000000   16.889186
  2305.000000   16.994644
  2306.000000   17.179947
  2307.000000   17.300921
  2308.000000   17.367441
  2309.000000   17.378104
  2310.000000   17.332803
  2311.000000   17.345844
  2312.000000   17.427869
  2313.000000   17.481598
  2314.000000   17.496226
  2315.000000   17.488595
  2316.000000   17.441809
  2317.000000   17.463626
  2318.000000   17.630517
  2319.000000   17.744980
  2320.000000   17.718648
  2321.000000   17.706364
  2322.000000   17.740943
  2323.000000   17.730960
  2324.000000   17.526601
  2325.000000   17.347569
  2326.000000   17.313041
  2327.000000   17.286543
  2328.000000   17.338749
  2329.000000   17.376341
  2330.000000   17.223475
  2331.000000   17.068350
  2332.000000   16.988849
  2333.000000   16.908385
  2334.000000   16.787126
  2335.000000   16.659006
  2336.000000   16.696586
  2337.000000   16.748619
  2338.000000   16.845993
  2339.000000   16.946842
  2340.000000   16.973422
  2341.000000   16.993712
  2342.000000   17.033138
  2343.000000   17.066647
  2344.000000   17.071270
  2345.000000   17.076706
  2346.000000   17.032505
  2347.000000   16.967127
  2348.000000   17.015505
  2349.000000   17.103782
  2350.000000   17.110172
  2351.000000   17.079042
  2352.000000   17.117050
  2353.000000   17.169158
  2354.000000   17.306982
  2355.000000   17.506639
  2356.000000   17.568726
  2357.000000   17.532243
  2358.000000   17.374765
  2359.000000   17.170726
  2360.000000   17.009376
  2361.000000   16.873592
  2362.000000   16.823234
  2363.000000   16.841681
  2364.000000   16.774679
  2365.000000   16.651487
  2366.000000   16.645791
  2367.000000   16.783397
  2368.000000   16.847318
  2369.000000   16.742903
  2370.000000   16.808995
  2371.000000   17.088707
  2372.000000   17.211232
  2373.000000   17.155597
  2374.000000   17.034623
  2375.000000   16.828015
  2376.000000   16.693093
  2377.000000   16.690008
  2378.000000   16.778120
  2379.000000   17.022206
  2380.000000   17.131913
  2381.000000   16.861194
  2382.000000   16.623100
  2383.000000   16.455821
  2384.000000   16.320595
  2385.000000   16.358042
  2386.000000   16.472902
  2387.000000   16.597046
  2388.000000   16.547936
  2389.000000   16.267354
  2390.000000   16.187499
  2391.000000   16.541144
  2392.000000   16.861369
  2393.000000   16.989377
  2394.000000   16.999662
  2395.000000   16.892679
  2396.000000   16.768131
  2397.000000   16.487313
  2398.000000   16.291160
  2399.000000   16.443307
  2400.000000   16.550386
  2401.000000   16.425358
  2402.000000   16.291299
  2403.000000   16.227369
  2404.000000   16.172444
  2405.000000   16.134971
  2406.000000   16.105900
  2407.000000   16.115513
  2408.000000   16.116620
  2409.000000   16.057041
  2410.000000   16.057492
  2411.000000   16.313075
  2412.000000   16.580801
  2413.000000   16.570673
  2414.000000   16.439474
  2415.000000   16.256490
  2416.000000   16.123890
  2417.000000   16.201898
  2418.000000   16.313761
  2419.000000   16.559667
  2420.000000   16.771759
  2421.000000   16.694849
  2422.000000   16.422892
  2423.000000   15.638508
  2424.000000   15.034005
  2425.000000   15.043174
  2426.000000   15.206018
  2427.000000   15.757055
  2428.000000   16.272288
  2429.000000   16.603715
  2430.000000   16.785939
  2431.000000   16.201750
  2432.000000   15.685924
  2433.000000   15.809188
  2434.000000   15.965180
  2435.000000   16.080879
  2436.000000   16.094861
  2437.000000   15.929711
  2438.000000   15.893645
  2439.000000   16.081753
  2440.000000   16.181492
  2441.000000   16.240816
  2442.000000   16.428942
  2443.000000   16.590674
  2444.000000   16.602102
  2445.000000   16.049250
  2446.000000   15.366165
  2447.000000   14.717767
  2448.000000   14.570027
  2449.000000   15.583410
  2450.000000   16.329132
  2451.000000   16.672121
  2452.000000   16.682750
  2453.000000   15.812255
  2454.000000   15.164543
  2455.000000   15.493458
  2456.000000   15.959149
  2457.000000   15.974022
  2458.000000   15.710488
  2459.000000   15.309001
  2460.000000   14.781939
  2461.000000   14.331976
  2462.000000   14.179982
  2463.000000   14.175389
  2464.000000   14.575952
  2465.000000   15.676078
  2466.000000   16.660996
  2467.000000   17.550238
  2468.000000   18.270221
  2469.000000   17.950340
  2470.000000   16.742687
  2471.000000   14.743074
  2472.000000   13.419111
  2473.000000   13.150917
  2474.000000   13.230350
  2475.000000   13.702383
  2476.000000   13.807507
  2477.000000   13.381496
  2478.000000   13.188897
  2479.000000   13.528053
  2480.000000   14.956106
  2481.000000   17.351737
  2482.000000   19.569137
  2483.000000   22.709696
  2484.000000   24.980218
  2485.000000   24.292230
  2486.000000   26.100818
  2487.000000   30.045245
  2488.000000   32.549506
  2489.000000   34.026283
  2490.000000   35.539305
  2491.000000   36.594767
  2492.000000   32.180368
  2493.000000   24.271227
  2494.000000   18.018538
  2495.000000   13.334395
  2496.000000   19.792636
  2497.000000   29.438619
  2498.000000   30.086300
  2499.000000   28.403189
  2500.000000   28.302014
